	Longueur d'onde (nm)	Intensité	Numéro	Intensité normalisée	Qualité
0	316.223	35	226	3.5	
1	316.882	35	227	3.5	
2	322.204	35	228	3.5	
3	323.855	35	229	3.5	
4	329.663	75	222	7.5	
5	331.338	50	224	5.0	
6	332.922	50	225	5.0	
7	333.157	75	223	7.5	
8	335.445	100	220	10.0	
9	336.603	300	158	30.0	
10	354.681	200	189	20.0	
11	366.922	300	133	30.0	
12	367.485	200	190	20.0	
13	367.985	300	134	30.0	
14	369.763	300	135	30.0	
15	372.601	500	66	50.0	
16	373.843	200	191	20.0	
17	374.068	300	159	30.0	
18	374.297	300	136	30.0	
19	376.168	200	192	20.0	
20	376.575	300	160	30.0	
21	377.542	300	161	30.0	
22	378.077	300	162	30.0	
23	378.143	200	193	20.0	
24	380.92	300	137	30.0	
25	381.093	400	109	40.0	
26	383.952	300	163	30.0	
27	387.403	300	164	30.0	
28	388.579	300	138	30.0	
29	389.097	250	179	25.0	
30	389.873	300	165	30.0	
31	395.476	300	139	30.0	
32	405.656	200	183	20.0	
33	408.531	200	184	20.0	
34	426.432	300	140	30.0	
35	428.437	300	141	30.0	
36	430.564	200	185	20.0	
37	431.88	400	110	40.0	
38	434.772	200	194	20.0	
39	436.392	350	128	35.0	
40	436.964	300	142	30.0	
41	438.849	400	84	40.0	
42	440.942	400	85	40.0	
43	441.247	500	48	50.0	
44	443.586	250	175	25.0	
45	443.655	300	143	30.0	
46	443.868	300	144	30.0	
47	446.816	250	176	25.0	
48	447.858	350	129	35.0	
49	448.16	300	145	30.0	
50	448.505	300	146	30.0	
51	449.05	300	147	30.0	
52	450.033	350	130	35.0	
53	450.684	250	180	25.0	
54	451.731	200	195	20.0	
55	452.332	200	196	20.0	
56	452.612	250	177	25.0	
57	452.676	250	178	25.0	
58	452.77	400	86	40.0	
59	454.006	300	166	30.0	
60	454.142	300	148	30.0	
61	454.175	450	82	45.0	
62	454.408	500	49	50.0	
63	454.517	200	197	20.0	
64	454.978	400	87	40.0	
65	455.403	300	149	30.0	
66	455.463	200	198	20.0	
67	455.534	500	50	50.0	
68	455.606	200	199	20.0	
69	455.703	300	167	30.0	
70	455.921	300	168	30.0	
71	456.814	300	150	30.0	
72	457.037	200	200	20.0	
73	457.215	300	151	30.0	
74	457.527	400	88	40.0	
75	457.828	300	169	30.0	
76	457.841	200	186	20.0	
77	457.948	300	152	30.0	
78	458.114	300	170	30.0	
79	458.549	300	153	30.0	
80	459.382	200	201	20.0	
81	459.582	400	89	40.0	
82	459.755	800	16	80.0	
83	460.025	500	51	50.0	
84	460.296	400	90	40.0	
85	460.459	400	111	40.0	
86	460.566	600	38	60.0	
87	460.985	500	52	50.0	
88	461.702	600	39	60.0	
89	461.84	200	202	20.0	
90	461.849	400	91	40.0	
91	461.975	500	53	50.0	
92	462.157	500	67	50.0	
93	462.331	500	68	50.0	
94	462.368	700	21	70.0	
95	462.441	900	6	90.0	
96	462.529	500	54	50.0	
97	462.76	400	92	40.0	
98	463.093	200	203	20.0	
99	463.345	600	40	60.0	
100	464.096	400	93	40.0	
101	464.336	700	22	70.0	
102	464.376	700	23	70.0	
103	464.594	400	112	40.0	
104	464.703	600	41	60.0	
105	465.042	600	42	60.0	
106	465.052	500	69	50.0	
107	465.341	400	94	40.0	
108	465.45	400	113	40.0	
109	465.505	500	55	50.0	
110	465.938	300	171	30.0	
111	466.079	500	56	50.0	
112	466.326	300	154	30.0	
113	466.346	600	43	60.0	
114	466.519	400	95	40.0	
115	467.123	500	57	50.0	
116	467.176	400	114	40.0	
117	467.442	500	58	50.0	
118	467.746	200	204	20.0	
119	467.792	500	59	50.0	
120	467.809	400	96	40.0	
121	468.292	700	24	70.0	
122	469.68	500	60	50.0	
123	469.951	200	205	20.0	
124	472.706	300	172	30.0	
125	472.836	900	2	90.0	
126	472.868	400	97	40.0	
127	473.427	800	12	80.0	
128	473.799	200	187	20.0	
129	473.978	200	206	20.0	
130	474.513	350	131	35.0	
131	475.773	500	61	50.0	
132	475.9	800	13	80.0	
133	476.257	700	25	70.0	
134	477.346	700	26	70.0	
135	478.129	900	3	90.0	
136	479.459	250	181	25.0	
137	479.543	200	207	20.0	
138	479.898	700	27	70.0	
139	480.136	900	4	90.0	
140	480.954	700	28	70.0	
141	481.196	900	5	90.0	
142	481.712	400	98	40.0	
143	482.772	400	99	40.0	
144	483.766	800	14	80.0	
145	483.892	400	100	40.0	
146	483.962	300	173	30.0	
147	484.401	200	208	20.0	
148	485.273	350	132	35.0	
149	486.062	400	101	40.0	
150	486.074	700	29	70.0	
151	486.53	300	155	30.0	
152	486.572	500	62	50.0	
153	486.98	400	102	40.0	
154	487.242	700	30	70.0	
155	488.702	500	63	50.0	
156	489.252	700	31	70.0	
157	490.03	400	103	40.0	
158	490.428	300	156	30.0	
159	491.828	400	104	40.0	
160	493.299	600	44	60.0	
161	495.946	700	32	70.0	
162	499.71	500	64	50.0	
163	503.08	200	188	20.0	
164	505.831	300	157	30.0	
165	509.242	200	209	20.0	
166	509.483	400	105	40.0	
167	509.618	200	210	20.0	
168	510.077	400	106	40.0	
169	512.734	400	107	40.0	
170	512.975	200	211	20.0	
171	514.513	400	108	40.0	
172	514.63	500	65	50.0	
173	553.738	200	212	20.0	
174	573.081	200	213	20.0	
175	577.699	200	214	20.0	
176	590.471	250	182	25.0	
177	590.59	100	221	10.0	
178	591.496	125	219	12.5	
179	593.966	150	218	15.0	
180	595.642	800	17	80.0	
181	595.669	200	215	20.0	
182	596.789	400	115	40.0	
183	597.973	200	216	20.0	
184	598.482	200	217	20.0	
185	599.712	400	116	40.0	
186	603.006	300	174	30.0	
187	603.132	400	117	40.0	
188	604.339	500	70	50.0	
189	606.906	500	71	50.0	
190	610.021	900	7	90.0	
191	610.64	400	118	40.0	
192	615.176	400	83	40.0	
193	616.316	400	119	40.0	
194	622.964	500	72	50.0	
195	623.779	400	120	40.0	
196	627.269	400	121	40.0	
197	628.606	400	122	40.0	
198	630.829	500	73	50.0	
199	632.384	700	33	70.0	
200	639.031	500	74	50.0	
201	643.193	500	47	50.0	
202	648.761	400	123	40.0	
203	651.034	400	124	40.0	
204	651.725	500	75	50.0	
205	652.045	1000	1	100.0	
206	654.22	500	76	50.0	
207	659.815	900	8	90.0	
208	659.866	800	18	80.0	
209	660.637	700	34	70.0	
210	662.523	800	11	80.0	
211	664.981	700	35	70.0	
212	666.168	500	77	50.0	
213	666.376	400	125	40.0	
214	666.751	800	15	80.0	
215	667.747	700	20	70.0	
216	668.555	500	78	50.0	
217	668.568	500	79	50.0	
218	670.033	600	45	60.0	
219	671.467	700	36	70.0	
220	671.726	500	80	50.0	
221	672.071	500	81	50.0	
222	672.75	700	37	70.0	
223	674.371	600	46	60.0	
224	674.991	900	9	90.0	
225	675.048	900	10	90.0	
226	677.878	400	126	40.0	
227	683.33	800	19	80.0	
228	684.837	400	127	40.0	
